[
    {
        "rt": 1715.6449999893084,
        "stimulus": "<img src=\"/uploads/8DZjse67v/lake_nback_i/img/inst.png\" >",
        "button_pressed": "0",
        "trial_type": "html-button-response",
        "trial_index": 0,
        "time_elapsed": 1718,
        "internal_node_id": "0.0-0.0",
        "correct_answer": null,
        "choices": [
            {
                "stimulusType": "image",
                "identifier": "I11",
                "filePath": "img/START.png",
                "button": false
            }
        ]
    },
    {
        "rt": null,
        "stimulus": "<p style=\"font-size:10px;\">+</p>",
        "key_press": null,
        "trial_type": "html-keyboard-response",
        "trial_index": 1,
        "time_elapsed": 2219,
        "internal_node_id": "0.0-1.0",
        "correct_answer": null,
        "choices": null
    },
    {
        "rt": 500.9600000048522,
        "stimulus": "<img src=\"/uploads/8DZjse67v/lake_nback_i/img/F1.png\" >",
        "button_pressed": "1",
        "trial_type": "html-button-response",
        "trial_index": 2,
        "time_elapsed": 2721,
        "internal_node_id": "0.0-2.0",
        "correct_answer": null,
        "choices": [
            {
                "stimulusType": "text",
                "identifier": "s1",
                "content": "X",
                "fontSize": 10,
                "fontColor": null
            },
            {
                "stimulusType": "text",
                "identifier": "s2",
                "content": "O",
                "fontSize": 10,
                "fontColor": null
            }
        ]
    },
    {
        "rt": null,
        "stimulus": "<p style=\"font-size:10px;\">+</p>",
        "key_press": null,
        "trial_type": "html-keyboard-response",
        "trial_index": 3,
        "time_elapsed": 3227,
        "internal_node_id": "0.0-3.0",
        "correct_answer": null,
        "choices": null
    },
    {
        "rt": 168.49999999976717,
        "stimulus": "<img src=\"/uploads/8DZjse67v/lake_nback_i/img/F2.png\" >",
        "button_pressed": "1",
        "trial_type": "html-button-response",
        "trial_index": 4,
        "time_elapsed": 3396,
        "internal_node_id": "0.0-4.0",
        "correct_answer": null,
        "choices": [
            {
                "stimulusType": "text",
                "identifier": "s1",
                "content": "X",
                "fontSize": 10,
                "fontColor": null
            },
            {
                "stimulusType": "text",
                "identifier": "s2",
                "content": "O",
                "fontSize": 10,
                "fontColor": null
            }
        ]
    },
    {
        "rt": null,
        "stimulus": "<p style=\"font-size:10px;\">+</p>",
        "key_press": null,
        "trial_type": "html-keyboard-response",
        "trial_index": 5,
        "time_elapsed": 3900,
        "internal_node_id": "0.0-5.0",
        "correct_answer": null,
        "choices": null
    },
    {
        "rt": 492.0799999963492,
        "stimulus": "<img src=\"/uploads/8DZjse67v/lake_nback_i/img/F1.png\" >",
        "button_pressed": "1",
        "trial_type": "html-button-response",
        "trial_index": 6,
        "time_elapsed": 4392,
        "internal_node_id": "0.0-6.0",
        "correct_answer": null,
        "choices": [
            {
                "stimulusType": "text",
                "identifier": "s1",
                "content": "X",
                "fontSize": 10,
                "fontColor": null
            },
            {
                "stimulusType": "text",
                "identifier": "s2",
                "content": "O",
                "fontSize": 10,
                "fontColor": null
            }
        ]
    },
    {
        "rt": null,
        "stimulus": "<p style=\"font-size:10px;\">+</p>",
        "key_press": null,
        "trial_type": "html-keyboard-response",
        "trial_index": 7,
        "time_elapsed": 4893,
        "internal_node_id": "0.0-7.0",
        "correct_answer": null,
        "choices": null
    },
    {
        "rt": 389.67499998398125,
        "stimulus": "<img src=\"/uploads/8DZjse67v/lake_nback_i/img/F3.png\" >",
        "button_pressed": "1",
        "trial_type": "html-button-response",
        "trial_index": 8,
        "time_elapsed": 5284,
        "internal_node_id": "0.0-8.0",
        "correct_answer": null,
        "choices": [
            {
                "stimulusType": "text",
                "identifier": "s1",
                "content": "X",
                "fontSize": 10,
                "fontColor": null
            },
            {
                "stimulusType": "text",
                "identifier": "s2",
                "content": "O",
                "fontSize": 10,
                "fontColor": null
            }
        ]
    },
    {
        "rt": null,
        "stimulus": "<p style=\"font-size:10px;\">+</p>",
        "key_press": null,
        "trial_type": "html-keyboard-response",
        "trial_index": 9,
        "time_elapsed": 5788,
        "internal_node_id": "0.0-9.0",
        "correct_answer": null,
        "choices": null
    },
    {
        "rt": 804.3199999956414,
        "stimulus": "<img src=\"/uploads/8DZjse67v/lake_nback_i/img/F4.png\" >",
        "button_pressed": "1",
        "trial_type": "html-button-response",
        "trial_index": 10,
        "time_elapsed": 6593,
        "internal_node_id": "0.0-10.0",
        "correct_answer": null,
        "choices": [
            {
                "stimulusType": "text",
                "identifier": "s1",
                "content": "X",
                "fontSize": 10,
                "fontColor": null
            },
            {
                "stimulusType": "text",
                "identifier": "s2",
                "content": "O",
                "fontSize": 10,
                "fontColor": null
            }
        ]
    },
    {
        "rt": null,
        "stimulus": "<p style=\"font-size:10px;\">+</p>",
        "key_press": null,
        "trial_type": "html-keyboard-response",
        "trial_index": 11,
        "time_elapsed": 7097,
        "internal_node_id": "0.0-11.0",
        "correct_answer": null,
        "choices": null
    },
    {
        "rt": 461.33499999996275,
        "stimulus": "<img src=\"/uploads/8DZjse67v/lake_nback_i/img/F3.png\" >",
        "button_pressed": "1",
        "trial_type": "html-button-response",
        "trial_index": 12,
        "time_elapsed": 7559,
        "internal_node_id": "0.0-12.0",
        "correct_answer": null,
        "choices": [
            {
                "stimulusType": "text",
                "identifier": "s1",
                "content": "X",
                "fontSize": 10,
                "fontColor": null
            },
            {
                "stimulusType": "text",
                "identifier": "s2",
                "content": "O",
                "fontSize": 10,
                "fontColor": null
            }
        ]
    },
    {
        "rt": null,
        "stimulus": "<p style=\"font-size:10px;\">+</p>",
        "key_press": null,
        "trial_type": "html-keyboard-response",
        "trial_index": 13,
        "time_elapsed": 8060,
        "internal_node_id": "0.0-13.0",
        "correct_answer": null,
        "choices": null
    },
    {
        "rt": 309.5000000030268,
        "stimulus": "<img src=\"/uploads/8DZjse67v/lake_nback_i/img/F5.png\" >",
        "button_pressed": "1",
        "trial_type": "html-button-response",
        "trial_index": 14,
        "time_elapsed": 8371,
        "internal_node_id": "0.0-14.0",
        "correct_answer": null,
        "choices": [
            {
                "stimulusType": "text",
                "identifier": "s1",
                "content": "X",
                "fontSize": 10,
                "fontColor": null
            },
            {
                "stimulusType": "text",
                "identifier": "s2",
                "content": "O",
                "fontSize": 10,
                "fontColor": null
            }
        ]
    },
    {
        "rt": null,
        "stimulus": "<p style=\"font-size:10px;\">+</p>",
        "key_press": null,
        "trial_type": "html-keyboard-response",
        "trial_index": 15,
        "time_elapsed": 8872,
        "internal_node_id": "0.0-15.0",
        "correct_answer": null,
        "choices": null
    },
    {
        "rt": 387.5150000094436,
        "stimulus": "<img src=\"/uploads/8DZjse67v/lake_nback_i/img/F6.png\" >",
        "button_pressed": "1",
        "trial_type": "html-button-response",
        "trial_index": 16,
        "time_elapsed": 9260,
        "internal_node_id": "0.0-16.0",
        "correct_answer": null,
        "choices": [
            {
                "stimulusType": "text",
                "identifier": "s1",
                "content": "X",
                "fontSize": 10,
                "fontColor": null
            },
            {
                "stimulusType": "text",
                "identifier": "s2",
                "content": "O",
                "fontSize": 10,
                "fontColor": null
            }
        ]
    },
    {
        "rt": null,
        "stimulus": "<p style=\"font-size:10px;\">+</p>",
        "key_press": null,
        "trial_type": "html-keyboard-response",
        "trial_index": 17,
        "time_elapsed": 9766,
        "internal_node_id": "0.0-17.0",
        "correct_answer": null,
        "choices": null
    },
    {
        "rt": 344.6999999869149,
        "stimulus": "<img src=\"/uploads/8DZjse67v/lake_nback_i/img/F7.png\" >",
        "button_pressed": "1",
        "trial_type": "html-button-response",
        "trial_index": 18,
        "time_elapsed": 10111,
        "internal_node_id": "0.0-18.0",
        "correct_answer": null,
        "choices": [
            {
                "stimulusType": "text",
                "identifier": "s1",
                "content": "X",
                "fontSize": 10,
                "fontColor": null
            },
            {
                "stimulusType": "text",
                "identifier": "s2",
                "content": "O",
                "fontSize": 10,
                "fontColor": null
            }
        ]
    },
    {
        "rt": null,
        "stimulus": "<p style=\"font-size:10px;\">+</p>",
        "key_press": null,
        "trial_type": "html-keyboard-response",
        "trial_index": 19,
        "time_elapsed": 10615,
        "internal_node_id": "0.0-19.0",
        "correct_answer": null,
        "choices": null
    },
    {
        "rt": 291.5950000169687,
        "stimulus": "<img src=\"/uploads/8DZjse67v/lake_nback_i/img/F6.png\" >",
        "button_pressed": "1",
        "trial_type": "html-button-response",
        "trial_index": 20,
        "time_elapsed": 10907,
        "internal_node_id": "0.0-20.0",
        "correct_answer": null,
        "choices": [
            {
                "stimulusType": "text",
                "identifier": "s1",
                "content": "X",
                "fontSize": 10,
                "fontColor": null
            },
            {
                "stimulusType": "text",
                "identifier": "s2",
                "content": "O",
                "fontSize": 10,
                "fontColor": null
            }
        ]
    },
    {
        "rt": null,
        "stimulus": "<p style=\"font-size:10px;\">+</p>",
        "key_press": null,
        "trial_type": "html-keyboard-response",
        "trial_index": 21,
        "time_elapsed": 11410,
        "internal_node_id": "0.0-21.0",
        "correct_answer": null,
        "choices": null
    },
    {
        "rt": 251.60000001778826,
        "stimulus": "<img src=\"/uploads/8DZjse67v/lake_nback_i/img/F4.png\" >",
        "button_pressed": "1",
        "trial_type": "html-button-response",
        "trial_index": 22,
        "time_elapsed": 11663,
        "internal_node_id": "0.0-22.0",
        "correct_answer": null,
        "choices": [
            {
                "stimulusType": "text",
                "identifier": "s1",
                "content": "X",
                "fontSize": 10,
                "fontColor": null
            },
            {
                "stimulusType": "text",
                "identifier": "s2",
                "content": "O",
                "fontSize": 10,
                "fontColor": null
            }
        ]
    },
    {
        "rt": null,
        "stimulus": "<p style=\"font-size:10px;\">+</p>",
        "key_press": null,
        "trial_type": "html-keyboard-response",
        "trial_index": 23,
        "time_elapsed": 12164,
        "internal_node_id": "0.0-23.0",
        "correct_answer": null,
        "choices": null
    },
    {
        "rt": 236.94499998237006,
        "stimulus": "<img src=\"/uploads/8DZjse67v/lake_nback_i/img/F7.png\" >",
        "button_pressed": "1",
        "trial_type": "html-button-response",
        "trial_index": 24,
        "time_elapsed": 12401,
        "internal_node_id": "0.0-24.0",
        "correct_answer": null,
        "choices": [
            {
                "stimulusType": "text",
                "identifier": "s1",
                "content": "X",
                "fontSize": 10,
                "fontColor": null
            },
            {
                "stimulusType": "text",
                "identifier": "s2",
                "content": "O",
                "fontSize": 10,
                "fontColor": null
            }
        ]
    },
    {
        "rt": null,
        "stimulus": "<p style=\"font-size:10px;\">+</p>",
        "key_press": null,
        "trial_type": "html-keyboard-response",
        "trial_index": 25,
        "time_elapsed": 12904,
        "internal_node_id": "0.0-25.0",
        "correct_answer": null,
        "choices": null
    },
    {
        "rt": 191.02999998722225,
        "stimulus": "<img src=\"/uploads/8DZjse67v/lake_nback_i/img/F4.png\" >",
        "button_pressed": "1",
        "trial_type": "html-button-response",
        "trial_index": 26,
        "time_elapsed": 13096,
        "internal_node_id": "0.0-26.0",
        "correct_answer": null,
        "choices": [
            {
                "stimulusType": "text",
                "identifier": "s1",
                "content": "X",
                "fontSize": 10,
                "fontColor": null
            },
            {
                "stimulusType": "text",
                "identifier": "s2",
                "content": "O",
                "fontSize": 10,
                "fontColor": null
            }
        ]
    },
    {
        "rt": null,
        "stimulus": "<p style=\"font-size:10px;\">+</p>",
        "key_press": null,
        "trial_type": "html-keyboard-response",
        "trial_index": 27,
        "time_elapsed": 13598,
        "internal_node_id": "0.0-27.0",
        "correct_answer": null,
        "choices": null
    },
    {
        "rt": 923.2900000060908,
        "stimulus": "<img src=\"/uploads/8DZjse67v/lake_nback_i/img/F5.png\" >",
        "button_pressed": "1",
        "trial_type": "html-button-response",
        "trial_index": 28,
        "time_elapsed": 14522,
        "internal_node_id": "0.0-28.0",
        "correct_answer": null,
        "choices": [
            {
                "stimulusType": "text",
                "identifier": "s1",
                "content": "X",
                "fontSize": 10,
                "fontColor": null
            },
            {
                "stimulusType": "text",
                "identifier": "s2",
                "content": "O",
                "fontSize": 10,
                "fontColor": null
            }
        ]
    },
    {
        "rt": null,
        "stimulus": "<p style=\"font-size:10px;\">+</p>",
        "key_press": null,
        "trial_type": "html-keyboard-response",
        "trial_index": 29,
        "time_elapsed": 15027,
        "internal_node_id": "0.0-29.0",
        "correct_answer": null,
        "choices": null
    },
    {
        "rt": 378.4750000049826,
        "stimulus": "<img src=\"/uploads/8DZjse67v/lake_nback_i/img/F2.png\" >",
        "button_pressed": "1",
        "trial_type": "html-button-response",
        "trial_index": 30,
        "time_elapsed": 15406,
        "internal_node_id": "0.0-30.0",
        "correct_answer": null,
        "choices": [
            {
                "stimulusType": "text",
                "identifier": "s1",
                "content": "X",
                "fontSize": 10,
                "fontColor": null
            },
            {
                "stimulusType": "text",
                "identifier": "s2",
                "content": "O",
                "fontSize": 10,
                "fontColor": null
            }
        ]
    },
    {
        "rt": null,
        "stimulus": "<p style=\"font-size:10px;\">+</p>",
        "key_press": null,
        "trial_type": "html-keyboard-response",
        "trial_index": 31,
        "time_elapsed": 15910,
        "internal_node_id": "0.0-31.0",
        "correct_answer": null,
        "choices": null
    },
    {
        "rt": 322.09999999031425,
        "stimulus": "<img src=\"/uploads/8DZjse67v/lake_nback_i/img/F8.png\" >",
        "button_pressed": "1",
        "trial_type": "html-button-response",
        "trial_index": 32,
        "time_elapsed": 16233,
        "internal_node_id": "0.0-32.0",
        "correct_answer": null,
        "choices": [
            {
                "stimulusType": "text",
                "identifier": "s1",
                "content": "X",
                "fontSize": 10,
                "fontColor": null
            },
            {
                "stimulusType": "text",
                "identifier": "s2",
                "content": "O",
                "fontSize": 10,
                "fontColor": null
            }
        ]
    },
    {
        "rt": null,
        "stimulus": "<p style=\"font-size:10px;\">+</p>",
        "key_press": null,
        "trial_type": "html-keyboard-response",
        "trial_index": 33,
        "time_elapsed": 16736,
        "internal_node_id": "0.0-33.0",
        "correct_answer": null,
        "choices": null
    },
    {
        "rt": 363.23499999707565,
        "stimulus": "<img src=\"/uploads/8DZjse67v/lake_nback_i/img/F2.png\" >",
        "button_pressed": "1",
        "trial_type": "html-button-response",
        "trial_index": 34,
        "time_elapsed": 17100,
        "internal_node_id": "0.0-34.0",
        "correct_answer": null,
        "choices": [
            {
                "stimulusType": "text",
                "identifier": "s1",
                "content": "X",
                "fontSize": 10,
                "fontColor": null
            },
            {
                "stimulusType": "text",
                "identifier": "s2",
                "content": "O",
                "fontSize": 10,
                "fontColor": null
            }
        ]
    },
    {
        "rt": null,
        "stimulus": "<p style=\"font-size:10px;\">+</p>",
        "key_press": null,
        "trial_type": "html-keyboard-response",
        "trial_index": 35,
        "time_elapsed": 17602,
        "internal_node_id": "0.0-35.0",
        "correct_answer": null,
        "choices": null
    },
    {
        "rt": 308.54500000714324,
        "stimulus": "<img src=\"/uploads/8DZjse67v/lake_nback_i/img/F6.png\" >",
        "button_pressed": "1",
        "trial_type": "html-button-response",
        "trial_index": 36,
        "time_elapsed": 17912,
        "internal_node_id": "0.0-36.0",
        "correct_answer": null,
        "choices": [
            {
                "stimulusType": "text",
                "identifier": "s1",
                "content": "X",
                "fontSize": 10,
                "fontColor": null
            },
            {
                "stimulusType": "text",
                "identifier": "s2",
                "content": "O",
                "fontSize": 10,
                "fontColor": null
            }
        ]
    },
    {
        "rt": null,
        "stimulus": "<p style=\"font-size:10px;\">+</p>",
        "key_press": null,
        "trial_type": "html-keyboard-response",
        "trial_index": 37,
        "time_elapsed": 18414,
        "internal_node_id": "0.0-37.0",
        "correct_answer": null,
        "choices": null
    },
    {
        "rt": 355.99999999976717,
        "stimulus": "<img src=\"/uploads/8DZjse67v/lake_nback_i/img/F3.png\" >",
        "button_pressed": "1",
        "trial_type": "html-button-response",
        "trial_index": 38,
        "time_elapsed": 18771,
        "internal_node_id": "0.0-38.0",
        "correct_answer": null,
        "choices": [
            {
                "stimulusType": "text",
                "identifier": "s1",
                "content": "X",
                "fontSize": 10,
                "fontColor": null
            },
            {
                "stimulusType": "text",
                "identifier": "s2",
                "content": "O",
                "fontSize": 10,
                "fontColor": null
            }
        ]
    },
    {
        "rt": null,
        "stimulus": "<p style=\"font-size:10px;\">+</p>",
        "key_press": null,
        "trial_type": "html-keyboard-response",
        "trial_index": 39,
        "time_elapsed": 19277,
        "internal_node_id": "0.0-39.0",
        "correct_answer": null,
        "choices": null
    },
    {
        "rt": 183.79000001004897,
        "stimulus": "<img src=\"/uploads/8DZjse67v/lake_nback_i/img/F8.png\" >",
        "button_pressed": "1",
        "trial_type": "html-button-response",
        "trial_index": 40,
        "time_elapsed": 19462,
        "internal_node_id": "0.0-40.0",
        "correct_answer": null,
        "choices": [
            {
                "stimulusType": "text",
                "identifier": "s1",
                "content": "X",
                "fontSize": 10,
                "fontColor": null
            },
            {
                "stimulusType": "text",
                "identifier": "s2",
                "content": "O",
                "fontSize": 10,
                "fontColor": null
            }
        ]
    },
    {
        "rt": null,
        "stimulus": "<p style=\"font-size:10px;\">+</p>",
        "key_press": null,
        "trial_type": "html-keyboard-response",
        "trial_index": 41,
        "time_elapsed": 19963,
        "internal_node_id": "0.0-41.0",
        "correct_answer": null,
        "choices": null
    },
    {
        "rt": 236.96000000927597,
        "stimulus": "<img src=\"/uploads/8DZjse67v/lake_nback_i/img/F1.png\" >",
        "button_pressed": "1",
        "trial_type": "html-button-response",
        "trial_index": 42,
        "time_elapsed": 20201,
        "internal_node_id": "0.0-42.0",
        "correct_answer": null,
        "choices": [
            {
                "stimulusType": "text",
                "identifier": "s1",
                "content": "X",
                "fontSize": 10,
                "fontColor": null
            },
            {
                "stimulusType": "text",
                "identifier": "s2",
                "content": "O",
                "fontSize": 10,
                "fontColor": null
            }
        ]
    },
    {
        "rt": null,
        "stimulus": "<p style=\"font-size:10px;\">+</p>",
        "key_press": null,
        "trial_type": "html-keyboard-response",
        "trial_index": 43,
        "time_elapsed": 20702,
        "internal_node_id": "0.0-43.0",
        "correct_answer": null,
        "choices": null
    },
    {
        "rt": 679.1350000130478,
        "stimulus": "<img src=\"/uploads/8DZjse67v/lake_nback_i/img/F8.png\" >",
        "button_pressed": "1",
        "trial_type": "html-button-response",
        "trial_index": 44,
        "time_elapsed": 21382,
        "internal_node_id": "0.0-44.0",
        "correct_answer": null,
        "choices": [
            {
                "stimulusType": "text",
                "identifier": "s1",
                "content": "X",
                "fontSize": 10,
                "fontColor": null
            },
            {
                "stimulusType": "text",
                "identifier": "s2",
                "content": "O",
                "fontSize": 10,
                "fontColor": null
            }
        ]
    },
    {
        "rt": 1075.1499999896623,
        "stimulus": "<p style=\"font-size:40px;\">어려웠을텐데 포기하지 않고 열심히 해주어서 고마워요</p>",
        "button_pressed": "0",
        "trial_type": "html-button-response",
        "trial_index": 45,
        "time_elapsed": 22458,
        "internal_node_id": "0.0-45.0",
        "correct_answer": null,
        "choices": [
            {
                "stimulusType": "text",
                "identifier": "T8",
                "content": "물고기 도감을 획득했어!",
                "fontSize": 40,
                "fontColor": null
            }
        ]
    },
    {
        "rt": 1043.7650000094436,
        "stimulus": "<img src=\"/uploads/8DZjse67v/lake_nback_i/img/F6.png\" >",
        "button_pressed": "0",
        "trial_type": "html-button-response",
        "trial_index": 46,
        "time_elapsed": 23503,
        "internal_node_id": "0.0-46.0",
        "correct_answer": null,
        "choices": [
            {
                "stimulusType": "text",
                "identifier": "T3",
                "content": "다음",
                "fontSize": 10,
                "fontColor": null
            }
        ]
    },
    {
        "rt": 1035.120000015013,
        "stimulus": "<img src=\"/uploads/8DZjse67v/lake_nback_i/img/F7.png\" >",
        "button_pressed": "0",
        "trial_type": "html-button-response",
        "trial_index": 47,
        "time_elapsed": 24538,
        "internal_node_id": "0.0-47.0",
        "correct_answer": null,
        "choices": [
            {
                "stimulusType": "text",
                "identifier": "T3",
                "content": "다음",
                "fontSize": 10,
                "fontColor": null
            }
        ]
    },
    {
        "rt": 588.160000013886,
        "stimulus": "<img src=\"/uploads/8DZjse67v/lake_nback_i/img/F8.png\" >",
        "button_pressed": "0",
        "trial_type": "html-button-response",
        "trial_index": 48,
        "time_elapsed": 25127,
        "internal_node_id": "0.0-48.0",
        "correct_answer": null,
        "choices": [
            {
                "stimulusType": "text",
                "identifier": "T3",
                "content": "다음",
                "fontSize": 10,
                "fontColor": null
            }
        ]
    },
    {
        "rt": 952.67500000773,
        "stimulus": "<p style=\"font-size:40px;\">수고하셨습니다. 다음 질문에 대답해 주세요.</p>",
        "button_pressed": "0",
        "trial_type": "html-button-response",
        "trial_index": 49,
        "time_elapsed": 26081,
        "internal_node_id": "0.0-49.0",
        "correct_answer": null,
        "choices": [
            {
                "stimulusType": "text",
                "identifier": "T3",
                "content": "다음",
                "fontSize": 10,
                "fontColor": null
            }
        ]
    },
    {
        "rt": 898.5049999901094,
        "stimulus": "<p style=\"font-size:10px;\">과제가 어려웠다</p>",
        "button_pressed": "1",
        "trial_type": "html-button-response",
        "trial_index": 50,
        "time_elapsed": 26980,
        "internal_node_id": "0.0-50.0",
        "correct_answer": null,
        "choices": [
            {
                "stimulusType": "image",
                "identifier": "I80",
                "filePath": "img/1.png",
                "button": false
            },
            {
                "stimulusType": "image",
                "identifier": "I81",
                "filePath": "img/2.png",
                "button": false
            },
            {
                "stimulusType": "image",
                "identifier": "I82",
                "filePath": "img/3.png",
                "button": false
            },
            {
                "stimulusType": "image",
                "identifier": "I83",
                "filePath": "img/4.png",
                "button": false
            },
            {
                "stimulusType": "image",
                "identifier": "I84",
                "filePath": "img/5.png",
                "button": false
            }
        ]
    },
    {
        "rt": 585.8749999897555,
        "stimulus": "<p style=\"font-size:10px;\">과제가 재미 있었다</p>",
        "button_pressed": "3",
        "trial_type": "html-button-response",
        "trial_index": 51,
        "time_elapsed": 27568,
        "internal_node_id": "0.0-51.0",
        "correct_answer": null,
        "choices": [
            {
                "stimulusType": "image",
                "identifier": "I80",
                "filePath": "img/1.png",
                "button": false
            },
            {
                "stimulusType": "image",
                "identifier": "I81",
                "filePath": "img/2.png",
                "button": false
            },
            {
                "stimulusType": "image",
                "identifier": "I82",
                "filePath": "img/3.png",
                "button": false
            },
            {
                "stimulusType": "image",
                "identifier": "I83",
                "filePath": "img/4.png",
                "button": false
            },
            {
                "stimulusType": "image",
                "identifier": "I84",
                "filePath": "img/5.png",
                "button": false
            }
        ]
    },
    {
        "rt": 464.22999998321757,
        "stimulus": "<p style=\"font-size:10px;\">과제를 하는 동안 주변에 방해받지 않고 집중 할 수 있었다</p>",
        "button_pressed": "2",
        "trial_type": "html-button-response",
        "trial_index": 52,
        "time_elapsed": 28033,
        "internal_node_id": "0.0-52.0",
        "correct_answer": null,
        "choices": [
            {
                "stimulusType": "image",
                "identifier": "I80",
                "filePath": "img/1.png",
                "button": false
            },
            {
                "stimulusType": "image",
                "identifier": "I81",
                "filePath": "img/2.png",
                "button": false
            },
            {
                "stimulusType": "image",
                "identifier": "I82",
                "filePath": "img/3.png",
                "button": false
            },
            {
                "stimulusType": "image",
                "identifier": "I83",
                "filePath": "img/4.png",
                "button": false
            },
            {
                "stimulusType": "image",
                "identifier": "I84",
                "filePath": "img/5.png",
                "button": false
            }
        ]
    },
    {
        "rt": 2242.6200000045355,
        "stimulus": "<p style=\"font-size:40px;\">Thank you!</p>",
        "key_press": 72,
        "trial_type": "html-keyboard-response",
        "trial_index": 53,
        "time_elapsed": 30277,
        "internal_node_id": "0.0-53.0",
        "correct_answer": null,
        "choices": null
    }
]